marker,half,image,question,construct,trials.thisRepN,trials.thisTrialN,trials.thisN,trials.thisIndex,EndIntro.keys,EndIntro.rt,EndIntro.started,EndIntro.stopped,StartNachricht1.started,StartNachricht1.stopped,Start.keys,Start.rt,Start.started,Start.stopped,WebsiteImg.started,WebsiteImg.stopped,Frage.started,Frage.stopped,RatingBlau.response,RatingBlau.rt,RatingBlau.started,RatingBlau.stopped,FixationCross.started,FixationCross.stopped,participant,session,date,expName,psychopyVersion,frameRate,
,,,,,,,,,['z'],[1.334791013970971],12.588049598503858,None,,,,,,,,,,,,,,,,,P00,001,2022_May_26_1204,VirtualInfluencersEEG,3.2.4,59.937944594223225,
,,,,,,,,,,,,,13.95505057205446,None,return,1.850453968392685,13.95505057205446,None,,,,,,,,,,,P00,001,2022_May_26_1204,VirtualInfluencersEEG,3.2.4,59.937944594223225,
20,VI,Stimuli/VI_soymar.ia.png,The shown influencer is a human.,human,0,0,0,79,,,,,,,,,,,16.221756326500326,18.237999382428825,18.205113778356463,None,3,5.801,2.004334405530244,None,24.05486172111705,None,P00,001,2022_May_26_1204,VirtualInfluencersEEG,3.2.4,59.937944594223225,
11,VI,Stimuli/VI_bermudaisbae.png,The shown influencer is a human.,human,0,1,1,70,,,,,,,,,,,28.138150239596143,30.138260449282825,30.12165582482703,None,1,2.402,2.013963855570182,None,32.555075644981116,None,P00,001,2022_May_26_1204,VirtualInfluencersEEG,3.2.4,59.937944594223225,
17,VI,Stimuli/VI_noonouri.png,I perceived the influencer as eerie.,uncanny,0,2,2,56,,,,,,,,,,,36.97176882810891,38.971357393078506,38.87173062493093,None,4,4.668,2.002852681092918,None,43.57168068829924,None,P00,001,2022_May_26_1204,VirtualInfluencersEEG,3.2.4,59.937944594223225,
19,VI,Stimuli/VI_shudu.gram.png,The shown influencer is a human.,human,0,3,3,78,,,,,,,,,,,47.98847018252127,49.988247947534546,49.888344957260415,None,4,3.369,2.0020533476490527,None,53.288237122120336,None,P00,001,2022_May_26_1204,VirtualInfluencersEEG,3.2.4,59.937944594223225,
3,HI,Stimuli/HI_emilycanham.png,I would follow brand recommendations from the shown influencer.,use,0,4,4,22,,,,,,,,,,,56.955352565739304,58.955034997314215,58.85495160683058,None,2,4.918,1.9992708852514625,None,63.80496005760506,None,P00,001,2022_May_26_1204,VirtualInfluencersEEG,3.2.4,59.937944594223225,
12,VI,Stimuli/VI_iamxalara.png,I perceived the influencer as eerie.,uncanny,0,5,5,51,,,,,,,,,,,67.47161741228774,69.47150028846227,69.388293833239,None,4,3.268,2.0081541929394007,None,72.68819891894236,None,P00,001,2022_May_26_1204,VirtualInfluencersEEG,3.2.4,59.937944594223225,
15,VI,Stimuli/VI_lilmiquela.png,I would follow brand recommendations from the shown influencer.,use,0,6,6,34,,,,,,,,,,,77.1047791687306,79.10483804508112,79.02156510110945,None,1,2.985,2.0093429752159864,None,82.03825779515319,None,P00,001,2022_May_26_1204,VirtualInfluencersEEG,3.2.4,59.937944594223225,
6,HI,Stimuli/HI_jihye.png,The shown influencer is a human.,human,0,7,7,65,,,,,,,,,,,85.68856034777127,87.68823544611223,87.6046745465137,None,4,3.868,2.009169615339488,None,91.50474997516721,None,P00,001,2022_May_26_1204,VirtualInfluencersEEG,3.2.4,59.937944594223225,
20,VI,Stimuli/VI_soymar.ia.png,The shown influencer is trustworthy.,trust,0,8,8,19,,,,,,,,,,,95.88867830950767,97.88818229688331,97.80461797513999,None,2,3.785,2.0100077665410936,None,101.62137254863046,None,P00,001,2022_May_26_1204,VirtualInfluencersEEG,3.2.4,59.937944594223225,
17,VI,Stimuli/VI_noonouri.png,The shown influencer is a human.,human,0,9,9,76,,,,,,,,,,,105.50477784173563,107.50478049577214,107.42139755189419,None,1,2.619,2.003058894071728,None,110.07148024393246,None,P00,001,2022_May_26_1204,VirtualInfluencersEEG,3.2.4,59.937944594223225,
13,VI,Stimuli/VI_immagram.png,I perceived the influencer as eerie.,uncanny,0,10,10,52,,,,,,,,,,,114.48798080463894,116.48795608081855,116.40476087038405,None,3,4.952,2.0147620160132647,None,121.38791305874474,None,P00,001,2022_May_26_1204,VirtualInfluencersEEG,3.2.4,59.937944594223225,
7,HI,Stimuli/HI_lamise.png,I perceived the influencer as eerie.,uncanny,0,11,11,46,,,,,,,,,,,125.78799086180516,127.78797151590697,127.68786954763345,None,2,3.869,2.002320476807654,None,131.5878266650252,None,P00,001,2022_May_26_1204,VirtualInfluencersEEG,3.2.4,59.937944594223225,
5,HI,Stimuli/HI_imjennim.png,The shown influencer is trustworthy.,trust,0,12,12,4,,,,,,,,,,,135.23801530641504,137.23792996024713,137.15468243858777,None,3,3.685,2.009117304114625,None,140.87119962158613,None,P00,001,2022_May_26_1204,VirtualInfluencersEEG,3.2.4,59.937944594223225,
15,VI,Stimuli/VI_lilmiquela.png,I perceived the influencer as eerie.,uncanny,0,13,13,54,,,,,,,,,,,145.0214923263993,147.0211082692258,146.92115687881596,None,4,3.419,2.0001938096247613,None,150.3711948725395,None,P00,001,2022_May_26_1204,VirtualInfluencersEEG,3.2.4,59.937944594223225,
1,HI,Stimuli/HI_adhel_bol.png,I perceived the influencer as eerie.,uncanny,0,14,14,40,,,,,,,,,,,154.2711837675888,156.2711101549212,156.18801027769223,None,2,4.418,2.014235678361729,None,160.63788044289686,None,P00,001,2022_May_26_1204,VirtualInfluencersEEG,3.2.4,59.937944594223225,
19,VI,Stimuli/VI_shudu.gram.png,I would follow brand recommendations from the shown influencer.,use,0,15,15,38,,,,,,,,,,,164.53797933808528,166.53786465874873,166.45469438144937,None,2,4.002,2.003465454559773,None,170.4879441380035,None,P00,001,2022_May_26_1204,VirtualInfluencersEEG,3.2.4,59.937944594223225,
7,HI,Stimuli/HI_lamise.png,I would follow brand recommendations from the shown influencer.,use,0,16,16,26,,,,,,,,,,,174.8713777170051,176.87126988195814,176.7712040913757,None,2,1.602,2.0042654720600694,None,178.40441683214158,None,P00,001,2022_May_26_1204,VirtualInfluencersEEG,3.2.4,59.937944594223225,
18,VI,Stimuli/VI_rozygram.png,I perceived the influencer as eerie.,uncanny,0,17,17,57,,,,,,,,,,,182.57143882801756,184.5712425042875,184.48790453816764,None,4,5.618,2.015450371662155,None,190.13779956661165,None,P00,001,2022_May_26_1204,VirtualInfluencersEEG,3.2.4,59.937944594223225,
14,VI,Stimuli/VI_leyalovenature.png,The shown influencer is trustworthy.,trust,0,18,18,13,,,,,,,,,,,194.30448129563592,196.30442088306881,196.20436780364253,None,1,3.685,2.0063526371959597,None,199.92124040890485,None,P00,001,2022_May_26_1204,VirtualInfluencersEEG,3.2.4,59.937944594223225,
6,HI,Stimuli/HI_jihye.png,I perceived the influencer as eerie.,uncanny,0,19,19,45,,,,,,,,,,,203.4875767729245,205.48787862691097,205.47127986932173,None,2,4.602,2.005531988106668,None,210.10453521320596,None,P00,001,2022_May_26_1204,VirtualInfluencersEEG,3.2.4,59.937944594223225,
15,VI,Stimuli/VI_lilmiquela.png,The shown influencer is trustworthy.,trust,0,20,20,14,,,,,,,,,,,213.7377447411418,215.73766868398525,215.65447151800618,None,1,3.052,2.0098713662009686,None,218.73770982050337,None,P00,001,2022_May_26_1204,VirtualInfluencersEEG,3.2.4,59.937944594223225,
8,HI,Stimuli/HI_rosesarerosie.png,The shown influencer is trustworthy.,trust,0,21,21,7,,,,,,,,,,,222.38774495082907,224.38768698251806,224.30451377201825,None,2,3.318,2.015369900269434,None,227.65446446393616,None,P00,001,2022_May_26_1204,VirtualInfluencersEEG,3.2.4,59.937944594223225,
12,VI,Stimuli/VI_iamxalara.png,The shown influencer is trustworthy.,trust,0,22,22,11,,,,,,,,,,,231.28780012531206,233.28766931267455,233.20439490210265,None,1,2.852,2.0117704067379236,None,236.08770695701241,None,P00,001,2022_May_26_1204,VirtualInfluencersEEG,3.2.4,59.937944594223225,
11,VI,Stimuli/VI_bermudaisbae.png,The shown influencer is trustworthy.,trust,0,23,23,10,,,,,,,,,,,240.22117308201268,242.22085942467675,242.12101021199487,None,1,3.269,2.004718183306977,None,245.42091089789756,None,P00,001,2022_May_26_1204,VirtualInfluencersEEG,3.2.4,59.937944594223225,
9,HI,Stimuli/HI_simoneses.png,I would follow brand recommendations from the shown influencer.,use,0,24,24,28,,,,,,,,,,,249.60441871802323,251.60438226070255,251.50440593692474,None,2,2.885,2.007721819449216,None,254.4208411963191,None,P00,001,2022_May_26_1204,VirtualInfluencersEEG,3.2.4,59.937944594223225,
19,VI,Stimuli/VI_shudu.gram.png,The shown influencer is trustworthy.,trust,0,25,25,18,,,,,,,,,,,258.0544843687676,260.0543447560631,259.9708703898359,None,2,2.019,2.0143945668824017,None,262.0208668280393,None,P00,001,2022_May_26_1204,VirtualInfluencersEEG,3.2.4,59.937944594223225,
14,VI,Stimuli/VI_leyalovenature.png,I would follow brand recommendations from the shown influencer.,use,0,26,26,33,,,,,,,,,,,266.1712568216026,268.1711714756675,268.0876296428032,None,2,5.918,2.0006831877399236,None,274.037668753881,None,P00,001,2022_May_26_1204,VirtualInfluencersEEG,3.2.4,59.937944594223225,
16,VI,Stimuli/VI_magazineluiza.png,I perceived the influencer as eerie.,uncanny,0,27,27,55,,,,,,,,,,,277.7041237084195,279.7043786291033,279.62096292944625,None,2,4.118,2.012448593508452,None,283.77085132314824,None,P00,001,2022_May_26_1204,VirtualInfluencersEEG,3.2.4,59.937944594223225,
19,VI,Stimuli/VI_shudu.gram.png,I perceived the influencer as eerie.,uncanny,0,28,28,58,,,,,,,,,,,287.5710394056514,289.5709266818594,289.5541020575911,None,3,5.485,2.007242805790156,None,295.07091955817305,None,P00,001,2022_May_26_1204,VirtualInfluencersEEG,3.2.4,59.937944594223225,
11,VI,Stimuli/VI_bermudaisbae.png,I perceived the influencer as eerie.,uncanny,0,29,29,50,,,,,,,,,,,299.43734029028565,301.43747396650724,301.35411937814206,None,4,4.285,2.005334672285244,None,305.67087730416097,None,P00,001,2022_May_26_1204,VirtualInfluencersEEG,3.2.4,59.937944594223225,
2,HI,Stimuli/HI_chiaraferragni.png,The shown influencer is trustworthy.,trust,0,30,30,1,,,,,,,,,,,309.5874336680863,311.5873942775652,311.4874169761315,None,2,4.635,1.999479836318642,None,316.1542961464729,None,P00,001,2022_May_26_1204,VirtualInfluencersEEG,3.2.4,59.937944594223225,
6,HI,Stimuli/HI_jihye.png,I would follow brand recommendations from the shown influencer.,use,0,31,31,25,,,,,,,,,,,319.98722316650674,321.9873025759589,321.9708089295309,None,2,6.718,2.00177585426718,None,328.7208776534535,None,P00,001,2022_May_26_1204,VirtualInfluencersEEG,3.2.4,59.937944594223225,
4,HI,Stimuli/HI_flaviapavanelli.png,I perceived the influencer as eerie.,uncanny,0,32,32,43,,,,,,,,,,,332.8875080491416,334.8873938585166,334.80418251478113,None,2,2.252,2.0123889490496367,None,337.08735258248635,None,P00,001,2022_May_26_1204,VirtualInfluencersEEG,3.2.4,59.937944594223225,
1,HI,Stimuli/HI_adhel_bol.png,The shown influencer is trustworthy.,trust,0,33,33,0,,,,,,,,,,,340.7206183327362,342.7208282756619,342.63736515375786,None,3,3.969,2.0076532773673534,None,346.63735921727493,None,P00,001,2022_May_26_1204,VirtualInfluencersEEG,3.2.4,59.937944594223225,
16,VI,Stimuli/VI_magazineluiza.png,I would follow brand recommendations from the shown influencer.,use,0,34,34,35,,,,,,,,,,,351.0541448004078,353.05403207661584,352.9705503771547,None,2,3.452,2.0007049918640405,None,356.454063086072,None,P00,001,2022_May_26_1204,VirtualInfluencersEEG,3.2.4,59.937944594223225,
5,HI,Stimuli/HI_imjennim.png,I perceived the influencer as eerie.,uncanny,0,35,35,44,,,,,,,,,,,360.60417490196414,362.60407635592856,362.50407656561583,None,3,3.435,2.002858254360035,None,365.97061945009045,None,P00,001,2022_May_26_1204,VirtualInfluencersEEG,3.2.4,59.937944594223225,
3,HI,Stimuli/HI_emilycanham.png,I perceived the influencer as eerie.,uncanny,0,36,36,42,,,,,,,,,,,369.6039047560189,371.6040697209537,371.5040606416296,None,2,6.302,2.0088810729794204,None,377.83740433491766,None,P00,001,2022_May_26_1204,VirtualInfluencersEEG,3.2.4,59.937944594223225,
15,VI,Stimuli/VI_lilmiquela.png,The shown influencer is a human.,human,0,37,37,74,,,,,,,,,,,381.95386983524077,383.95388960046694,383.9372546649538,None,1,2.918,2.011594113195315,None,386.88717735069804,None,P00,001,2022_May_26_1204,VirtualInfluencersEEG,3.2.4,59.937944594223225,
2,HI,Stimuli/HI_chiaraferragni.png,The shown influencer is a human.,human,0,38,38,61,,,,,,,,,,,391.0206840534229,393.0205307516735,392.9372993633151,None,4,2.152,2.0100123619195074,None,395.1205175516661,None,P00,001,2022_May_26_1204,VirtualInfluencersEEG,3.2.4,59.937944594223225,
16,VI,Stimuli/VI_magazineluiza.png,The shown influencer is trustworthy.,trust,0,39,39,15,,,,,,,,,,,398.770767304115,400.7705323579721,400.6706098120194,None,2,2.402,2.0076278548222035,None,403.10377932107076,None,P00,001,2022_May_26_1204,VirtualInfluencersEEG,3.2.4,59.937944594223225,
13,VI,Stimuli/VI_immagram.png,I would follow brand recommendations from the shown influencer.,use,0,40,40,32,,,,,,,,,,,407.5207066820003,409.52057440252975,409.42052767868154,None,2,4.118,2.0134679267648607,None,413.57048500562087,None,P00,001,2022_May_26_1204,VirtualInfluencersEEG,3.2.4,59.937944594223225,
4,HI,Stimuli/HI_flaviapavanelli.png,I would follow brand recommendations from the shown influencer.,use,0,41,41,23,,,,,,,,,,,417.1369773251936,419.1369447791949,419.103942330461,None,2,5.418,2.0032529833260924,None,424.55384657811373,None,P00,001,2022_May_26_1204,VirtualInfluencersEEG,3.2.4,59.937944594223225,
6,HI,Stimuli/HI_jihye.png,The shown influencer is trustworthy.,trust,0,42,42,5,,,,,,,,,,,428.43718636012636,430.437003236264,430.3369863347616,None,2,5.802,1.9994966539088637,None,436.1705808977131,None,P00,001,2022_May_26_1204,VirtualInfluencersEEG,3.2.4,59.937944594223225,
11,VI,Stimuli/VI_bermudaisbae.png,I would follow brand recommendations from the shown influencer.,use,0,43,43,30,,,,,,,,,,,440.07026277063414,442.07028742460534,441.9870819475036,None,1,5.718,2.0135217048227787,None,447.7370197887067,None,P00,001,2022_May_26_1204,VirtualInfluencersEEG,3.2.4,59.937944594223225,
13,VI,Stimuli/VI_immagram.png,The shown influencer is trustworthy.,trust,0,44,44,12,,,,,,,,,,,451.37026842776686,453.37022365955636,453.28706609341316,None,2,2.402,2.011459277709946,None,455.7202781357337,None,P00,001,2022_May_26_1204,VirtualInfluencersEEG,3.2.4,59.937944594223225,
14,VI,Stimuli/VI_leyalovenature.png,The shown influencer is a human.,human,0,45,45,73,,,,,,,,,,,459.8537188384216,461.85369851463474,461.7702911263332,None,1,2.035,2.0111634999047965,None,463.83702712203376,None,P00,001,2022_May_26_1204,VirtualInfluencersEEG,3.2.4,59.937944594223225,
3,HI,Stimuli/HI_emilycanham.png,The shown influencer is a human.,human,0,46,46,62,,,,,,,,,,,467.7203483262565,469.7203245803248,469.6203174565453,None,3,5.952,2.007699916837737,None,475.6037691941019,None,P00,001,2022_May_26_1204,VirtualInfluencersEEG,3.2.4,59.937944594223225,
12,VI,Stimuli/VI_iamxalara.png,The shown influencer is a human.,human,0,47,47,71,,,,,,,,,,,479.23703836649656,481.23698773165233,481.13699527434073,None,1,2.268,1.999199115904048,None,483.4369503664784,None,P00,001,2022_May_26_1204,VirtualInfluencersEEG,3.2.4,59.937944594223225,
5,HI,Stimuli/HI_imjennim.png,I would follow brand recommendations from the shown influencer.,use,0,48,48,24,,,,,,,,,,,487.0871003854554,489.08686397294514,488.9869824934285,None,2,5.402,1.9992578807286918,None,494.4202713612467,None,P00,001,2022_May_26_1204,VirtualInfluencersEEG,3.2.4,59.937944594223225,
7,HI,Stimuli/HI_lamise.png,The shown influencer is a human.,human,0,49,49,66,,,,,,,,,,,498.5703474881593,500.57031640876085,500.47020466276444,None,3,3.118,2.0074034549761564,None,503.6203087961767,None,P00,001,2022_May_26_1204,VirtualInfluencersEEG,3.2.4,59.937944594223225,
8,HI,Stimuli/HI_rosesarerosie.png,I perceived the influencer as eerie.,uncanny,0,50,50,47,,,,,,,,,,,507.2035768511705,509.2034915050026,509.1703145231586,None,3,3.385,2.001742120599374,None,512.5867858903948,None,P00,001,2022_May_26_1204,VirtualInfluencersEEG,3.2.4,59.937944594223225,
2,HI,Stimuli/HI_chiaraferragni.png,I perceived the influencer as eerie.,uncanny,0,51,51,41,,,,,,,,,,,516.9703739581164,518.9701106564607,518.8867340681609,None,2,5.269,2.015355429146439,None,524.1868319856003,None,P00,001,2022_May_26_1204,VirtualInfluencersEEG,3.2.4,59.937944594223225,
20,VI,Stimuli/VI_soymar.ia.png,I perceived the influencer as eerie.,uncanny,0,52,52,59,,,,,,,,,,,527.8201471136417,529.8202402119059,529.7202453103382,None,4,3.335,2.004386716755107,None,533.0866935600061,None,P00,001,2022_May_26_1204,VirtualInfluencersEEG,3.2.4,59.937944594223225,
5,HI,Stimuli/HI_imjennim.png,The shown influencer is a human.,human,0,53,53,64,,,,,,,,,,,537.2206803518347,539.2198944278061,539.1367916173767,None,4,2.502,2.0074313217774034,None,541.6698567834683,None,P00,001,2022_May_26_1204,VirtualInfluencersEEG,3.2.4,59.937944594223225,
2,HI,Stimuli/HI_chiaraferragni.png,I would follow brand recommendations from the shown influencer.,use,0,54,54,21,,,,,,,,,,,545.336956582265,547.3368463029619,547.2368259790819,None,2,4.535,2.0081845039967448,None,551.8034486924298,None,P00,001,2022_May_26_1204,VirtualInfluencersEEG,3.2.4,59.937944594223225,
17,VI,Stimuli/VI_noonouri.png,I would follow brand recommendations from the shown influencer.,use,0,55,55,36,,,,,,,,,,,556.1033932385035,558.1034755813889,558.0699715325609,None,1,1.718,2.0157455625012517,None,559.8366739347111,None,P00,001,2022_May_26_1204,VirtualInfluencersEEG,3.2.4,59.937944594223225,
20,VI,Stimuli/VI_soymar.ia.png,I would follow brand recommendations from the shown influencer.,use,0,56,56,39,,,,,,,,,,,563.9699669929687,565.969964269083,565.869970345404,None,1,2.202,2.005259872181341,None,568.1030224510469,None,P00,001,2022_May_26_1204,VirtualInfluencersEEG,3.2.4,59.937944594223225,
4,HI,Stimuli/HI_flaviapavanelli.png,The shown influencer is trustworthy.,trust,0,57,57,3,,,,,,,,,,,572.4874069190118,574.4867950396147,574.4033964511473,None,2,2.751,2.011270566377789,None,577.1867615156807,None,P00,001,2022_May_26_1204,VirtualInfluencersEEG,3.2.4,59.937944594223225,
17,VI,Stimuli/VI_noonouri.png,The shown influencer is trustworthy.,trust,0,58,58,16,,,,,,,,,,,581.3033282163087,583.3031930034049,583.2199684595689,None,1,3.785,2.015423873672262,None,587.0366301443428,None,P00,001,2022_May_26_1204,VirtualInfluencersEEG,3.2.4,59.937944594223225,
16,VI,Stimuli/VI_magazineluiza.png,The shown influencer is a human.,human,0,59,59,75,,,,,,,,,,,591.1868104045279,593.1865881695412,593.0866299346089,None,2,3.585,2.005078298971057,None,596.703167860629,None,P00,001,2022_May_26_1204,VirtualInfluencersEEG,3.2.4,59.937944594223225,
18,VI,Stimuli/VI_rozygram.png,I would follow brand recommendations from the shown influencer.,use,0,60,60,37,,,,,,,,,,,601.103235397255,603.1031700954773,603.0199088850059,None,1,2.785,2.000346831511706,None,605.8366137314588,None,P00,001,2022_May_26_1204,VirtualInfluencersEEG,3.2.4,59.937944594223225,
14,VI,Stimuli/VI_leyalovenature.png,I perceived the influencer as eerie.,uncanny,0,61,61,53,,,,,,,,,,,609.9864806141704,611.9863556679338,611.8862512554042,None,4,3.835,2.001566609600559,None,615.7533110352233,None,P00,001,2022_May_26_1204,VirtualInfluencersEEG,3.2.4,59.937944594223225,
10,HI,Stimuli/HI_sooyaaa__.png,I perceived the influencer as eerie.,uncanny,0,62,62,49,,,,,,,,,,,619.9033680956345,621.903156127315,621.8198426056188,None,3,1.836,2.004898387938738,None,623.6863898204174,None,P00,001,2022_May_26_1204,VirtualInfluencersEEG,3.2.4,59.937944594223225,
18,VI,Stimuli/VI_rozygram.png,The shown influencer is trustworthy.,trust,0,63,63,17,,,,,,,,,,,627.3199166373815,629.3199628023431,629.2364097251557,None,2,1.852,2.0127562996931374,None,631.1199076976627,None,P00,001,2022_May_26_1204,VirtualInfluencersEEG,3.2.4,59.937944594223225,
13,VI,Stimuli/VI_immagram.png,The shown influencer is a human.,human,0,64,64,72,,,,,,,,,,,635.1863965252414,637.1864123791456,637.1698747326154,None,3,2.585,2.0081768771633506,None,639.7864704870153,None,P00,001,2022_May_26_1204,VirtualInfluencersEEG,3.2.4,59.937944594223225,
9,HI,Stimuli/HI_simoneses.png,I perceived the influencer as eerie.,uncanny,0,65,65,48,,,,,,,,,,,644.186614779057,646.1864453442395,646.1031342670321,None,1,3.418,2.005648343358189,None,649.5530280384701,None,P00,001,2022_May_26_1204,VirtualInfluencersEEG,3.2.4,59.937944594223225,
8,HI,Stimuli/HI_rosesarerosie.png,The shown influencer is a human.,human,0,66,66,67,,,,,,,,,,,653.6869982078206,655.6864885061514,655.6030185399577,None,3,3.536,2.007636654889211,None,659.169671215117,None,P00,001,2022_May_26_1204,VirtualInfluencersEEG,3.2.4,59.937944594223225,
4,HI,Stimuli/HI_flaviapavanelli.png,The shown influencer is a human.,human,0,67,67,63,,,,,,,,,,,663.3032810732257,665.3030246160924,665.2030790923163,None,4,3.802,2.002194049535319,None,669.0365874012932,None,P00,001,2022_May_26_1204,VirtualInfluencersEEG,3.2.4,59.937944594223225,
10,HI,Stimuli/HI_sooyaaa__.png,The shown influencer is trustworthy.,trust,0,68,68,9,,,,,,,,,,,672.6864880870562,674.6864418522455,674.5864283728879,None,3,1.968,2.0040149653796107,None,676.5864256490022,None,P00,001,2022_May_26_1204,VirtualInfluencersEEG,3.2.4,59.937944594223225,
10,HI,Stimuli/HI_sooyaaa__.png,I would follow brand recommendations from the shown influencer.,use,0,69,69,29,,,,,,,,,,,680.4195276913233,682.4197503451724,682.4028934543021,None,2,3.619,2.0071954815648496,None,686.0527941398323,None,P00,001,2022_May_26_1204,VirtualInfluencersEEG,3.2.4,59.937944594223225,
3,HI,Stimuli/HI_emilycanham.png,The shown influencer is trustworthy.,trust,0,70,70,2,,,,,,,,,,,690.1197102563456,692.1196918881033,692.102745041484,None,2,2.135,2.0133835445158184,None,694.2695981611032,None,P00,001,2022_May_26_1204,VirtualInfluencersEEG,3.2.4,59.937944594223225,
7,HI,Stimuli/HI_lamise.png,The shown influencer is trustworthy.,trust,0,71,71,6,,,,,,,,,,,697.902880044654,699.9028802542016,699.8028760638554,None,2,2.218,2.0058572944253683,None,702.052879416151,None,P00,001,2022_May_26_1204,VirtualInfluencersEEG,3.2.4,59.937944594223225,
1,HI,Stimuli/HI_adhel_bol.png,I would follow brand recommendations from the shown influencer.,use,0,72,72,20,,,,,,,,,,,705.9530658225995,707.9529750987422,707.8695452213287,None,2,2.068,2.012883215676993,None,709.9695305547211,None,P00,001,2022_May_26_1204,VirtualInfluencersEEG,3.2.4,59.937944594223225,
10,HI,Stimuli/HI_sooyaaa__.png,The shown influencer is a human.,human,0,73,73,69,,,,,,,,,,,714.3695932023693,716.3694809675217,716.269499754766,None,4,2.585,2.0031403433531523,None,718.8859982204158,None,P00,001,2022_May_26_1204,VirtualInfluencersEEG,3.2.4,59.937944594223225,
12,VI,Stimuli/VI_iamxalara.png,I would follow brand recommendations from the shown influencer.,use,0,74,74,31,,,,,,,,,,,723.3028258478735,725.3028133462649,725.2028585337102,None,1,2.685,2.0061878813430667,None,727.9193822119851,None,P00,001,2022_May_26_1204,VirtualInfluencersEEG,3.2.4,59.937944594223225,
8,HI,Stimuli/HI_rosesarerosie.png,I would follow brand recommendations from the shown influencer.,use,0,75,75,27,,,,,,,,,,,731.5530136511661,733.5527513271663,733.4529138479847,None,2,1.468,2.004144227830693,None,734.9528789273463,None,P00,001,2022_May_26_1204,VirtualInfluencersEEG,3.2.4,59.937944594223225,
18,VI,Stimuli/VI_rozygram.png,The shown influencer is a human.,human,0,76,76,77,,,,,,,,,,,738.8362240870483,740.8360839853995,740.7528672637418,None,1,3.952,2.011247099842876,None,744.7361080807168,None,P00,001,2022_May_26_1204,VirtualInfluencersEEG,3.2.4,59.937944594223225,
9,HI,Stimuli/HI_simoneses.png,The shown influencer is trustworthy.,trust,0,77,77,8,,,,,,,,,,,748.3692149419803,750.3692034182604,750.2861196743324,None,3,4.185,2.0057896324433386,None,754.5027986099012,None,P00,001,2022_May_26_1204,VirtualInfluencersEEG,3.2.4,59.937944594223225,
9,HI,Stimuli/HI_simoneses.png,The shown influencer is a human.,human,0,78,78,68,,,,,,,,,,,758.5861047282815,760.5860311156139,760.5526268002577,None,4,1.185,2.002146921120584,None,761.7692856213544,None,P00,001,2022_May_26_1204,VirtualInfluencersEEG,3.2.4,59.937944594223225,
1,HI,Stimuli/HI_adhel_bol.png,The shown influencer is a human.,human,0,79,79,60,,,,,,,,,,,766.152488444699,768.1526998542249,768.0526985970791,None,4,1.519,2.001863560639322,None,769.6027767495252,None,P00,001,2022_May_26_1204,VirtualInfluencersEEG,3.2.4,59.937944594223225,
